Transcript: A787_001111_cleaned.txt Sampling_interval: 30000.0 Prop_TTS: 0.05 TTS: 2110226.0 Feature: xds(A)
30000.0 70
5469.92 9407.65 9560.87 7201.29 9116.53 8089.97 8105.29 8319.79 8335.12 7277.9 9943.92 10863.23 7875.46 8902.03 8044.0 7860.14 9377.01 6511.81 9683.44 7308.55 7415.8 8044.0 9591.51 7982.71 8764.13 6680.35 7155.33 9254.43 10127.78 5960.22 7814.17 8947.99 7890.78 9760.05 8733.49 7538.38 8840.74 7492.41 8626.23 7477.09 8488.33 9422.97 8641.55 8197.22 10081.81 9530.22 7124.69 9239.11 10357.61 7737.56 7706.92 9131.85 10158.42 7921.42 8319.79 6925.5 7385.16 8013.36 7063.4 9576.19 7170.65 7952.07 7783.53 8166.57 9652.8 6465.84 7952.07 5852.97 9177.82 9468.94 7860.14 7446.45 8917.35 8059.32 6496.49 7140.01 10725.33 7507.73 8672.2 7798.85 7231.94 9407.65 10326.96 7140.01 9913.27 6695.67 6557.77 10388.25 8503.66 7155.33 8304.47 7768.21 9193.14 7400.48 8028.68 8427.05 7017.43 8595.59 8105.29 8044.0
Transcript: A787_001111_cleaned.txt Sampling_interval: 30000.0 Prop_TTS: 0.1 TTS: 4220452.0 Feature: xds(A)
30000.0 140
8465.35 8258.51 8021.02 8296.81 8135.93 7438.78 8342.78 7645.63 7691.6 7507.73 8687.52 9629.82 6274.32 7408.14 7898.44 8220.2 9085.89 9231.45 7691.6 9116.53 8036.34 7982.71 8289.15 9384.67 9269.75 9055.25 6266.66 9522.56 8541.96 7415.8 7576.68 8227.86 8679.86 8810.09 9308.06 9583.85 8273.83 9147.18 8932.67 8319.79 7132.35 8174.24 7936.75 7660.95 8220.2 8503.66 8289.15 7231.94 7208.96 6642.05 7998.03 8825.42 8404.06 7630.31 7254.92 7446.45 8557.28 8181.9 6979.13 9775.37 8511.32 7484.75 7140.01 9292.73 10120.12 7078.72 9629.82 7775.87 7860.14 9698.77 7821.83 8963.31 9859.65 7584.34 9599.17 9032.26 8580.27 6825.91 9223.79 8473.01 8350.44 8128.27 8817.76 8664.54 8863.72 8687.52 8610.91 7982.71 8718.16 8112.95 8679.86 7821.83 8526.64 8044.0 7561.36 7178.31 8840.74 8656.88 7323.87 7860.14
Transcript: A787_001111_cleaned.txt Sampling_interval: 30000.0 Prop_TTS: 0.2 TTS: 8440904.0 Feature: xds(A)
30000.0 281
8423.22 7829.49 7542.21 7396.65 8538.13 8162.74 7611.16 9185.48 8756.47 7718.41 7680.1 7346.85 8135.93 8078.47 7300.89 7710.75 8618.57 8346.61 7607.33 8488.33 8135.93 8993.96 7909.93 8653.05 8093.8 8691.35 7795.02 9070.57 8204.88 7120.85 9177.82 8894.37 7415.8 7637.97 6936.99 8430.88 8323.62 7795.02 8779.45 8614.74 7975.05 10081.81 7913.76 7680.1 7526.89 8457.69 8714.33 7228.11 8798.6 8105.29 8848.4 8564.94 8361.93 8155.08 7289.4 8369.59 7936.75 7840.98 8308.3 8128.27 8963.31 8453.86 7913.76 7293.23 7737.56 8898.2 8086.13 8545.79 8350.44 8714.33 8143.59 8882.87 8178.07 7722.24 7492.41 8649.21 8185.73 7588.17 8993.96 7806.51 8197.22 8170.41 8909.69 8312.13 7300.89 7936.75 8859.89 8089.97 8756.47 9242.94 8139.76 7818.0 8250.85 8243.18 7894.61 8044.0 8051.66 7975.05 9024.6 8974.81
Transcript: A787_001111_cleaned.txt Sampling_interval: 30000.0 Prop_TTS: 0.3 TTS: 12661356.0 Feature: xds(A)
30000.0 422
8381.08 7918.87 7706.92 8473.01 9019.49 8840.74 7632.86 8194.66 7809.06 9050.14 8909.69 8301.92 8072.09 8388.74 7862.69 8005.69 8350.44 8672.2 8128.27 8061.88 8442.37 8038.89 8276.38 7903.55 8409.17 8761.58 8896.92 8135.93 8452.58 8743.7 7865.24 9269.75 7952.07 8904.58 8753.91 8171.68 8419.39 8092.52 7903.55 7563.91 8266.17 8391.3 8547.07 9091.0 8398.96 8572.61 7714.58 8054.21 9211.02 8273.83 8181.9 7793.74 8644.11 8401.51 8161.47 8153.81 8222.76 8263.61 8541.96 8771.79 9504.69 7995.48 8631.34 7433.68 7446.45 8061.88 8700.29 8189.56 8720.72 7809.06 7538.38 7954.62 8345.33 8710.5 8026.12 7923.98 8983.74 8337.67 7474.54 7650.74 8238.08 8414.28 8255.95 8156.36 8595.59 8567.5 9448.51 8958.21 9246.77 7936.75 8728.38 8199.77 8633.89 8679.86 7780.97 8483.23 8238.08 8015.91 8281.49 9144.62
Transcript: A787_001111_cleaned.txt Sampling_interval: 30000.0 Prop_TTS: 0.4 TTS: 16881808.0 Feature: xds(A)
30000.0 562
8469.18 8513.23 8622.4 8612.83 8813.93 8570.69 8800.52 8474.93 8315.96 8865.64 9534.05 8923.09 8756.47 8329.37 7356.43 8683.69 8007.61 8139.76 8668.37 7743.31 8547.71 8392.57 7919.51 7988.46 8576.44 9401.9 7783.53 8538.13 8128.27 8367.67 8524.72 8714.33 8976.72 7978.88 8243.18 7938.66 7892.7 8695.18 7921.42 8936.5 8721.99 8532.39 8804.35 8685.6 7852.48 8446.2 8559.2 8287.23 8292.98 8352.35 7896.53 8861.81 7865.88 8825.42 8061.24 8134.02 8375.34 7948.24 8170.41 8674.11 8055.49 8633.89 8643.47 8363.84 8894.37 8323.62 8543.88 8758.38 8386.83 7842.9 8643.47 8390.66 7821.83 8796.69 8503.66 8936.5 8273.83 8091.88 8440.45 8902.03 8540.05 7680.1 7383.24 7961.64 8164.66 8428.96 7940.58 8068.9 8794.77 8036.34 7913.76 8518.98 8174.24 7865.88 8059.32 7825.66 8524.72 8938.42 8176.15 9172.07
Transcript: A787_001111_cleaned.txt Sampling_interval: 30000.0 Prop_TTS: 0.5 TTS: 21102260.0 Feature: xds(A)
30000.0 703
8667.6 7886.18 7867.8 8068.51 8656.88 8014.89 8299.88 8641.55 8479.14 8367.29 8402.53 7838.69 8122.14 8473.01 8918.88 7993.44 8606.31 8249.31 8025.61 7903.04 8811.63 7823.36 8286.09 8161.98 8500.59 7945.94 7971.99 8194.15 8390.27 7691.6 8652.28 8940.33 9329.51 9139.52 8214.07 8044.0 8485.27 8997.02 9183.95 8394.87 8443.9 8486.8 8313.67 8022.55 8416.32 8980.17 8496.0 8119.08 8456.16 8151.25 8295.28 8071.58 8249.31 8044.0 8382.61 8089.97 7870.86 8189.56 8425.51 8247.78 8370.36 8664.54 8492.93 7933.68 7507.73 8578.73 8284.55 8154.32 8065.45 8393.34 8443.9 8834.61 8091.5 7317.74 8546.56 8518.98 8687.52 8762.6 8233.99 7447.98 8682.92 8785.58 8624.7 8774.85 8450.03 8233.99 7360.64 7679.34 9056.78 8131.33 8387.21 7708.45 8543.49 8610.91 8404.06 8411.73 7477.09 8675.26 8921.94 8551.15
Transcript: A787_001111_cleaned.txt Sampling_interval: 30000.0 Prop_TTS: 0.6 TTS: 25322712.0 Feature: xds(A)
30000.0 844
8471.74 8001.86 7692.87 8307.03 7552.42 8497.27 8220.2 8595.59 8310.86 8126.99 8365.76 9221.23 8981.19 8955.65 8190.83 8741.15 8476.84 8626.23 8607.08 8092.52 7941.85 8170.41 8272.55 7860.14 8198.5 9194.42 7869.07 7922.7 7784.8 8105.29 8324.9 7862.69 7870.35 8756.47 8347.88 8310.86 8566.22 8543.24 8635.17 8632.62 7844.81 8393.85 7991.65 8305.75 8531.75 8801.16 8406.62 8540.68 8884.15 8515.15 8757.74 8397.68 8871.38 8250.85 8340.22 8553.45 9310.61 7999.31 8996.51 7839.71 8552.18 8129.55 8605.8 8032.51 8854.78 8313.41 8185.73 8258.51 8110.39 8005.69 8548.35 8803.71 8121.89 8336.39 8294.26 8284.04 8144.87 8469.18 8687.52 8790.94 8727.1 7961.01 8257.23 9008.0 8285.32 8512.59 8614.74 8158.91 7169.37 8051.66 7599.66 8095.07 8414.28 8576.44 8254.68 8178.07 8189.56 8146.15 8398.96 8549.62
Transcript: A787_001111_cleaned.txt Sampling_interval: 30000.0 Prop_TTS: 0.7 TTS: 29543163.999999996 Feature: xds(A)
30000.0 984
7793.38 8492.71 8143.59 7940.03 8295.72 8293.53 8607.63 8979.73 8481.77 8549.62 8394.21 8044.0 8195.03 8253.03 8049.47 8115.14 8413.91 8236.62 8069.17 8401.88 7704.73 8473.01 8110.76 7611.7 8555.09 8633.89 8008.98 8211.45 8351.53 8077.93 8389.84 8164.39 8331.83 8497.09 8274.92 8087.78 8201.6 8463.16 8015.54 8080.12 8166.57 8203.79 8490.52 8370.14 8605.44 8418.29 8392.03 8193.94 8561.66 8433.61 8250.85 8919.54 8366.85 8431.42 8220.2 8527.73 7652.2 8218.01 8337.3 8076.83 8652.5 8169.86 8120.61 8509.13 8052.75 8835.27 8554.0 8026.49 8094.34 8659.06 8373.42 8627.33 8157.82 8263.98 8294.62 8700.65 9174.54 8306.66 8548.53 8791.49 8409.54 8364.67 8900.93 8369.04 8233.33 8401.88 8260.7 8466.45 8262.88 8811.19 8393.12 8211.45 8651.4 8182.99 8169.86 8917.35 8423.76 7980.52 8314.32 8767.41
Transcript: A787_001111_cleaned.txt Sampling_interval: 30000.0 Prop_TTS: 0.8 TTS: 33763616.0 Feature: xds(A)
30000.0 1125
8934.59 8271.91 8049.75 8076.56 8082.3 8464.39 7958.77 8152.21 8761.26 8846.48 8349.48 8495.04 8772.75 8193.39 8536.22 8496.0 8272.87 8568.77 8993.96 8814.88 8090.92 8498.87 8523.77 8538.13 8226.9 8228.82 8226.9 7993.25 8449.07 8636.77 8287.23 8157.96 8694.22 8477.8 8631.98 8186.68 8062.19 8329.37 8661.66 8594.63 8351.4 8536.22 8525.68 8629.1 8678.9 8319.79 8005.69 8135.93 7853.43 8309.26 8902.03 8598.46 8532.39 7976.01 8411.73 8233.61 7524.01 8732.53 8743.06 8676.99 8319.79 8180.94 8669.32 8524.72 8099.54 7871.63 8555.37 8550.58 8849.36 8074.64 8005.69 8018.14 8049.75 8098.58 8056.45 8366.72 8098.58 8730.61 8168.49 8769.87 8443.33 7895.57 7906.1 7836.2 8373.42 8826.37 8116.78 8337.03 8359.06 9119.41 8547.71 8098.58 8706.67 8407.89 7840.98 8361.93 8195.3 8422.26 9004.49 8833.08
Transcript: A787_001111_cleaned.txt Sampling_interval: 30000.0 Prop_TTS: 0.9 TTS: 37984068.0 Feature: xds(A)
30000.0 1266
8467.91 7871.2 8501.95 8358.1 8464.5 7982.71 8175.94 8028.68 8517.28 8563.24 7858.43 8510.47 8157.21 8847.55 8295.11 8027.83 7791.19 8650.92 8358.95 8261.91 8771.79 8317.24 8124.87 8719.87 8242.33 8411.73 8586.22 8245.74 8479.82 8178.49 8335.97 8495.14 8529.19 8301.92 8736.04 8315.54 8198.92 8288.3 7820.98 8358.1 8419.39 8200.62 8500.25 8329.16 8494.29 8355.54 8564.09 8309.58 7771.61 8489.19 8467.91 8665.39 8261.06 8549.62 8477.27 8526.64 8297.66 8198.92 8725.82 8463.65 8631.34 8929.27 8300.22 7984.41 8421.94 8305.32 8224.46 8365.76 8427.05 8502.81 8690.92 8827.97 8759.87 8576.01 8501.1 9020.35 8623.68 8263.61 8191.26 8440.67 8859.47 8472.16 8411.73 8417.68 8061.88 8176.79 8056.77 8209.99 8425.34 8416.83 8272.13 8614.31 8562.39 8736.89 8635.6 8421.09 8581.97 8207.43 8338.52 8136.78
