Transcript: B895_010004_cleaned.txt Sampling_interval: 30000.0 Prop_TTS: 0.05 TTS: 2066711.2000000002 Feature: xds(A)
30000.0 68
18763.91 18357.83 13162.75 14717.07 13876.89 14955.12 14310.98 17391.63 9802.04 13610.84 14563.04 16957.54 9101.9 13736.87 13484.81 15095.15 14142.95 13470.81 14647.06 11328.36 11132.32 14717.07 13120.74 13456.81 15851.31 10698.23 13218.76 11902.48 13204.75 14002.92 16145.37 13036.72 13134.74 14717.07 10964.29 12770.66 8681.81 16453.43 13610.84 12182.54 12434.59 11188.33 12742.66 7939.66 18189.79 13778.87 11426.38 14058.93 14423.01 13778.87 10950.28 14030.93 12476.6 10586.21 14787.08 16117.36 15697.27 12406.59 13498.82 16257.39 13764.87 15851.31 8387.75 12252.56 15123.15 13638.84 15473.23 15193.17 5867.22 14030.93 15473.23 12056.51 11664.43 14703.07 14507.03 15697.27 14282.98 14997.13 12490.61 12210.55 13008.71 11552.41 15529.24 14016.92 13750.87 12056.51 12840.68 11762.45 11566.41 14843.1 13610.84 21242.43 15767.29 10096.11 17601.67 14367.0 13806.88 17097.57 16691.48 17447.64
Transcript: B895_010004_cleaned.txt Sampling_interval: 30000.0 Prop_TTS: 0.1 TTS: 4133422.4000000004 Feature: xds(A)
30000.0 137
13743.87 17104.57 16971.54 12119.53 13813.88 16726.49 14177.96 12497.61 12700.65 12931.7 12476.6 15438.22 14416.01 14135.95 15753.29 12854.68 14661.06 15522.24 16047.35 14149.95 15970.33 16194.38 14808.09 10593.21 12182.54 14331.99 14212.96 14997.13 15011.13 16565.46 13260.77 11531.41 14738.07 18133.78 14591.04 13442.8 14885.1 12763.66 13701.86 14864.1 16425.43 14752.08 11664.43 9641.01 16537.45 15711.28 10362.16 14191.96 13834.89 16635.47 14640.05 17209.59 14458.02 12784.67 13932.91 12007.5 14016.92 13099.73 15466.23 12266.56 14948.12 12525.61 12973.71 14072.94 11258.35 15739.28 11104.32 11930.49 14717.07 14374.0 12749.66 14633.05 14605.05 11237.34 16810.51 14787.08 13099.73 15487.23 14619.05 12756.66 14240.97 12119.53 13799.88 13659.85 16523.45 15837.3 20402.26 16565.46 16586.46 12581.62 13750.87 12756.66 11615.42 13946.91 10383.17 13834.89 16999.55 15368.21 12539.62 12406.59
Transcript: B895_010004_cleaned.txt Sampling_interval: 30000.0 Prop_TTS: 0.2 TTS: 8266844.800000001 Feature: xds(A)
30000.0 275
10782.25 16722.99 14545.53 16043.85 12651.64 12868.68 12945.7 15375.21 13351.78 14423.01 12179.04 13362.29 15452.22 13624.84 14002.92 16134.87 13446.3 13785.88 13390.29 14160.45 12840.68 14374.0 14303.98 14892.11 14468.52 14612.05 13694.86 14041.43 14965.62 14874.6 14300.48 11888.48 15123.15 14909.61 13253.76 15266.68 16148.87 14037.93 14128.95 13176.75 13547.83 14920.11 11832.47 14731.07 15200.17 14111.44 13400.8 14395.0 11457.89 11422.88 13554.83 16225.88 12392.58 14451.01 11870.98 11454.39 11699.44 13638.84 14594.54 13575.83 12420.59 12343.57 13505.82 16159.37 14780.08 13131.24 14510.53 14542.03 15312.19 15354.2 15427.72 14661.06 11951.49 14734.57 13642.35 13698.36 13491.81 14573.54 11415.88 14685.56 11041.3 16292.4 12903.69 9854.56 12126.53 16446.43 16260.89 14500.02 13617.84 13302.77 12200.04 13579.33 12630.63 14783.58 13176.75 15109.15 17727.7 11181.33 13323.78 15154.66
Transcript: B895_010004_cleaned.txt Sampling_interval: 30000.0 Prop_TTS: 0.3 TTS: 12400267.2 Feature: xds(A)
30000.0 413
13648.18 12497.61 13956.24 12649.31 13543.16 15438.22 15039.14 13090.4 14105.61 14733.41 12679.64 13897.9 15508.23 11260.68 13603.84 13477.81 14044.93 13757.87 14570.04 14271.31 13865.23 13701.86 13813.88 13277.1 15214.17 13127.74 14168.62 13872.23 11629.43 13701.86 12644.64 14271.31 14789.42 12644.64 13060.06 12427.59 15473.23 12168.54 16019.34 13977.25 14479.02 12499.94 13298.11 13993.59 15363.54 12481.27 13533.82 16105.69 14238.64 11981.83 14577.04 13958.58 15608.59 13379.79 14654.06 14437.01 12334.24 12432.26 14623.72 13361.12 15384.54 14588.71 12885.02 12628.3 15989.0 13795.21 12945.7 13851.22 12985.38 14910.78 13456.81 13137.07 13379.79 12997.04 12719.32 14047.26 13587.5 13263.1 15321.53 12189.54 14964.45 13876.89 15393.88 15179.17 14633.05 10439.18 15251.51 14278.31 13118.4 11811.46 14574.71 11461.39 14287.65 14483.69 13111.4 14446.35 14605.05 14292.31 12560.62 12392.58
Transcript: B895_010004_cleaned.txt Sampling_interval: 30000.0 Prop_TTS: 0.4 TTS: 16533689.600000001 Feature: xds(A)
30000.0 551
12994.71 13469.06 12858.18 13855.89 14004.67 13087.48 13997.67 13390.29 14491.27 13276.52 16619.72 13472.56 13211.76 13399.04 13694.86 13026.22 13208.25 12971.96 16505.94 14235.72 13535.57 13701.86 13567.08 13871.64 14748.58 12903.69 14517.53 14314.49 14872.85 14804.59 11792.21 12338.32 14855.35 15467.98 13829.63 14745.08 14853.6 14780.08 14578.79 14995.38 15049.64 13322.03 14368.75 14592.79 14424.76 14885.1 14097.44 13262.52 12217.55 12915.94 12574.62 13187.25 11662.68 12413.59 13911.9 13066.48 13472.56 13546.08 13670.35 13385.04 13971.41 15070.64 14447.51 15009.38 16245.14 14557.79 14713.57 13568.83 13747.37 11907.73 15142.41 14270.73 13777.12 14907.86 15935.32 11555.91 14114.94 15047.89 11776.46 14878.1 12954.45 15453.97 14577.04 13556.58 13647.6 13731.61 12268.31 13917.15 14510.53 13159.24 11398.38 12793.42 13616.09 13679.1 14349.49 14235.72 14261.97 14983.13 16374.67 15930.07
Transcript: B895_010004_cleaned.txt Sampling_interval: 30000.0 Prop_TTS: 0.5 TTS: 20667112.0 Feature: xds(A)
30000.0 688
13463.81 14449.61 12548.02 13693.46 13511.42 14264.78 13946.91 13361.59 15768.69 13881.1 13714.46 14138.75 13470.81 14642.85 14656.86 14787.08 14976.12 13449.81 14907.51 16010.94 14766.08 14563.04 14253.57 14053.33 15174.97 12690.85 14159.75 14712.87 13067.53 13281.77 14633.05 13841.89 14913.11 14063.13 13620.64 12364.58 14479.02 12909.29 13633.24 13299.97 13990.32 14173.76 14593.84 13619.24 13570.23 12870.08 13351.78 13134.74 13920.3 14841.7 14074.34 14163.95 14113.54 15565.65 15186.17 13343.38 12769.26 14752.08 13414.8 14585.44 14745.08 12144.73 14526.63 14610.65 12875.69 14658.26 12969.51 14032.33 14598.04 13386.79 13575.83 13211.76 13278.97 14296.98 14628.85 14773.08 11751.25 13869.89 11565.01 14044.93 12245.55 12300.17 14449.61 13718.66 13840.49 14345.99 14686.26 13507.22 12209.15 14973.32 15413.01 14683.46 15197.37 14519.63 14606.45 14599.45 13112.33 15478.83 14347.39 14203.16
Transcript: B895_010004_cleaned.txt Sampling_interval: 30000.0 Prop_TTS: 0.6 TTS: 24800534.4 Feature: xds(A)
30000.0 826
13380.96 12482.44 14729.91 14771.91 15116.15 12606.13 14348.33 14728.74 12811.51 12657.47 15203.67 14271.31 14282.98 14771.91 15192.0 12935.2 14308.65 14885.1 13924.74 14427.68 13349.45 14620.22 13270.1 14036.76 14880.44 14509.36 13893.23 14163.95 13689.02 14785.92 13385.63 13128.91 13575.83 13799.88 13189.58 13725.2 14521.03 14140.62 13643.51 14850.1 15276.02 14086.94 13400.8 13593.34 11611.92 15596.92 13008.71 14431.18 13515.15 12522.11 14680.9 14349.49 13391.46 12324.9 14607.38 14242.14 13895.56 13191.92 12336.57 15251.51 14705.4 13006.38 11960.83 13664.52 13664.52 13726.36 14734.57 14048.43 12655.14 13476.64 14151.12 13240.93 13251.43 13236.26 12603.8 13829.05 14162.79 13816.22 14032.09 13866.39 13291.11 13938.74 13741.53 13756.7 14144.12 14712.4 13864.06 14265.48 13937.57 13111.4 14349.49 14777.75 13440.47 15099.82 13665.68 12663.31 12767.16 14319.15 13121.9 14163.95
Transcript: B895_010004_cleaned.txt Sampling_interval: 30000.0 Prop_TTS: 0.7 TTS: 28933956.799999997 Feature: xds(A)
30000.0 964
14361.0 12784.67 13060.72 14250.97 13893.9 14877.1 12932.7 12696.65 12812.67 14018.92 15334.2 14020.92 12466.6 13836.89 12802.67 13251.76 13212.76 14201.96 13816.88 12728.65 14599.05 13615.84 13686.85 14483.02 14242.97 14348.99 14433.01 15411.21 13835.89 14002.92 14521.03 12361.58 14093.94 14008.92 12646.64 15116.15 14142.95 13531.82 13536.82 14093.94 12845.68 13446.8 14524.03 12739.66 12242.55 12958.7 14443.01 13881.9 14691.06 13740.87 14839.1 14086.94 13588.83 13319.78 13085.73 14387.0 13433.8 14981.12 12167.54 15112.15 13787.88 13426.8 15088.15 13444.8 13192.75 15183.17 14056.93 14153.95 14540.03 14664.06 15616.26 14244.97 14059.93 14687.06 12628.63 13463.81 13471.81 14692.06 13075.73 14138.95 14127.95 14915.11 12785.67 14528.03 12930.7 13531.82 12564.62 14450.01 14348.99 14855.1 13979.92 14938.12 14654.06 13959.91 13376.79 13749.87 13595.84 14297.98 12246.55 12455.6
Transcript: B895_010004_cleaned.txt Sampling_interval: 30000.0 Prop_TTS: 0.8 TTS: 33067379.200000003 Feature: xds(A)
30000.0 1102
14887.73 13575.83 15097.77 15050.51 14519.28 14065.93 14862.35 13589.83 14059.81 13639.72 12598.25 14725.82 13534.7 14373.12 13530.32 15236.05 14371.37 13799.88 14086.06 15696.4 13553.08 14182.33 12980.71 14510.53 14009.92 13755.24 14538.53 12861.68 14901.73 13957.41 14735.45 13460.31 15012.88 15104.78 13379.79 14004.67 14295.23 13293.15 13427.93 13650.22 13928.53 13946.91 13731.61 13771.0 13848.01 14209.46 13196.88 14863.23 13528.57 12784.67 14561.29 15550.24 13380.67 13902.27 14837.84 13370.16 14061.56 13440.18 14371.37 14916.61 13785.0 14187.58 13499.69 13430.55 14504.4 13076.98 13151.37 14353.87 12760.16 13702.73 12744.41 14535.91 13988.04 14506.15 13763.12 13719.36 13409.55 14163.08 13820.88 13544.33 13548.7 14008.17 14198.96 13647.6 13426.18 14857.97 14536.78 13443.68 14066.81 13385.92 13820.88 13619.59 14095.69 12550.99 13959.16 11960.24 14717.07 13317.65 14396.75 13109.36
Transcript: B895_010004_cleaned.txt Sampling_interval: 30000.0 Prop_TTS: 0.9 TTS: 37200801.6 Feature: xds(A)
30000.0 1240
13100.51 15281.08 13667.63 14104.05 13927.46 13484.81 14366.22 13118.4 13958.58 13151.85 13270.1 14517.14 14571.59 13749.31 13326.11 13932.13 14485.24 14121.17 14878.1 13346.34 14321.88 14416.78 13488.7 13866.0 13187.64 14717.07 14271.31 14949.67 14356.88 13953.13 15058.59 13386.79 13964.02 13565.72 13726.75 14386.45 14530.36 13631.07 13708.08 14527.25 13715.86 13772.65 13135.52 13126.18 13907.23 14690.62 13866.0 14565.37 14978.46 13706.53 13871.45 13458.36 15146.49 13971.03 13465.36 13403.91 13128.52 14132.84 14702.29 14174.07 14072.94 14060.49 14170.96 14093.16 12658.64 13381.35 14458.79 13695.63 14047.26 13842.67 12870.24 13128.52 14025.48 13470.03 12941.03 14101.72 14356.11 14268.98 12719.32 13200.86 13463.81 14591.82 14423.01 14502.36 14278.31 14630.72 13435.8 15616.37 13081.84 13106.73 14002.14 14097.83 13258.43 13418.69 13085.73 14317.21 14429.23 16006.89 14177.18 13864.45
